* Measurement data measured by REW V5.20
* Source: Frequency Response Averaged data
* Format: Averaged data produced from R1, R2
* Dated: Apr 11, 2021 7:29:18 PM
* REW Settings:
*  C-weighting compensation: Off
*  Target level: 75.0 dB
* Note: 
* Measurement: Average 1
* Smoothing: 1/48 octave
* Frequency Step: 1/24 octave
* Start Frequency: 21.200 Hz
*
* Freq(Hz)	SPL(dB)	Phase(degrees)
21.200001	80.016602	0
21.799999	80.194977	0
22.400000	80.175766	0
23.000000	80.072128	0
23.600000	79.977638	0
24.299999	79.757950	0
25.000000	79.390579	0
25.799999	79.216171	0
26.500000	79.414558	0
27.200001	79.741203	0
28.000000	80.152924	0
29.000000	80.364395	0
30.000000	80.045364	0
30.700001	79.892212	0
31.500000	79.849510	0
32.500000	79.643295	0
33.500000	79.530327	0
34.500000	79.670975	0
35.500000	79.709076	0
36.500000	79.602669	0
37.500000	79.491219	0
38.700001	79.433334	0
40.000000	79.425301	0
41.200001	79.460388	0
42.500000	79.556229	0
43.700001	79.727829	0
45.000000	79.941071	0
46.200001	80.155289	0
47.500000	80.442871	0
48.700001	80.648598	0
50.000000	80.830627	0
51.500000	80.958031	0
53.000000	81.022919	0
54.500000	81.049301	0
56.000000	81.086449	0
58.000000	81.201866	0
60.000000	81.398674	0
61.500000	81.545586	0
63.000000	81.561508	0
65.000000	81.442902	0
67.000000	81.412491	0
69.000000	81.418114	0
71.000000	81.422722	0
73.000000	81.458603	0
75.000000	81.425903	0
77.500000	81.226089	0
80.000000	80.997910	0
82.500000	80.878998	0
85.000000	80.859184	0
87.500000	80.852203	0
90.000000	80.825134	0
92.500000	80.926697	0
95.000000	81.005493	0
97.500000	81.068596	0
100.000000	81.130257	0
103.000000	81.171867	0
106.000000	81.065353	0
109.000000	80.859451	0
112.000000	80.811829	0
115.000000	81.111633	0
118.000000	81.423347	0
122.000000	81.606812	0
125.000000	81.666260	0
128.000000	81.761848	0
132.000000	81.712158	0
136.000000	81.410789	0
140.000000	81.229439	0
145.000000	81.078896	0
150.000000	80.946976	0
155.000000	80.793877	0
160.000000	80.618103	0
165.000000	80.426506	0
170.000000	80.253334	0
175.000000	80.120193	0
180.000000	80.007347	0
185.000000	79.904808	0
190.000000	79.806000	0
195.000000	79.698311	0
200.000000	79.548309	0
206.000000	79.327950	0
212.000000	79.089951	0
218.000000	78.834251	0
224.000000	78.559494	0
230.000000	78.261673	0
236.000000	77.952271	0
243.000000	77.740227	0
250.000000	77.867683	0
258.000000	78.083252	0
265.000000	78.023315	0
272.000000	77.791489	0
280.000000	77.494156	0
290.000000	77.464684	0
300.000000	77.785316	0
307.000000	77.927841	0
315.000000	78.013184	0
325.000000	78.091423	0
335.000000	78.171432	0
345.000000	78.247169	0
355.000000	78.322678	0
365.000000	78.402237	0
375.000000	78.486938	0
387.000000	78.594406	0
400.000000	78.686333	0
412.000000	78.735229	0
425.000000	78.760857	0
437.000000	78.740875	0
450.000000	78.652290	0
462.000000	78.532333	0
475.000000	78.389000	0
487.000000	78.237221	0
500.000000	78.054909	0
515.000000	77.877922	0
530.000000	77.773987	0
545.000000	77.707649	0
560.000000	77.637482	0
580.000000	77.521324	0
600.000000	77.393356	0
615.000000	77.298347	0
630.000000	77.206261	0
650.000000	77.091301	0
670.000000	76.983803	0
690.000000	76.875191	0
710.000000	76.772339	0
730.000000	76.698685	0
750.000000	76.676239	0
775.000000	76.735458	0
800.000000	76.872353	0
825.000000	77.041763	0
850.000000	77.207344	0
875.000000	77.350639	0
900.000000	77.467934	0
925.000000	77.614639	0
950.000000	77.805443	0
975.000000	77.991058	0
1000.000000	78.170441	0
1030.000000	78.403259	0
1060.000000	78.645523	0
1090.000000	78.862289	0
1120.000000	79.044060	0
1150.000000	79.205086	0
1180.000000	79.346634	0
1220.000000	79.533875	0
1250.000000	79.703934	0
1280.000000	79.865906	0
1320.000000	80.008194	0
1360.000000	80.042381	0
1400.000000	79.967323	0
1450.000000	79.829453	0
1500.000000	79.781509	0
1550.000000	79.794327	0
1600.000000	79.771263	0
1650.000000	79.742500	0
1700.000000	79.800629	0
1750.000000	79.975273	0
1800.000000	80.185150	0
1850.000000	80.412430	0
1900.000000	80.703987	0
1950.000000	81.053108	0
2000.000000	81.451950	0
2060.000000	81.988708	0
2120.000000	82.518723	0
2180.000000	83.012611	0
2240.000000	83.508324	0
2300.000000	84.030434	0
2360.000000	84.542068	0
2430.000000	85.061401	0
2500.000000	85.424934	0
2580.000000	85.674622	0
2650.000000	85.868500	0
2720.000000	86.041962	0
2800.000000	86.066635	0
2900.000000	85.807060	0
3000.000000	85.555084	0
3070.000000	85.454407	0
3150.000000	85.325531	0
3250.000000	85.156723	0
3350.000000	85.122192	0
3450.000000	85.178131	0
3550.000000	85.167595	0
3650.000000	85.092690	0
3750.000000	85.072716	0
3870.000000	85.228531	0
4000.000000	85.558411	0
4120.000000	85.794006	0
4250.000000	85.805473	0
4370.000000	85.582672	0
4500.000000	85.135101	0
4620.000000	84.588058	0
4750.000000	83.929245	0
4870.000000	83.292297	0
5000.000000	82.584717	0
5150.000000	81.784874	0
5300.000000	81.009499	0
5450.000000	80.316597	0
5600.000000	79.795181	0
5800.000000	79.356094	0
6000.000000	79.281723	0
6150.000000	79.499321	0
6300.000000	79.950211	0
6500.000000	80.878471	0
6700.000000	82.021599	0
6900.000000	83.095451	0
7100.000000	83.838013	0
7300.000000	84.118591	0
7500.000000	84.027245	0
7750.000000	83.771561	0
8000.000000	83.817612	0
8250.000000	84.459000	0
8500.000000	85.365067	0
8750.000000	85.336426	0
9000.000000	83.397881	0
9250.000000	79.951790	0
9500.000000	76.192505	0
9750.000000	73.032730	0
10000.000000	70.537613	0
10300.000000	67.497650	0
10600.000000	63.522598	0
10900.000000	60.300739	0
11200.000000	61.578323	0
11500.000000	64.291801	0
11800.000000	66.595764	0
12200.000000	67.965118	0
12500.000000	67.090477	0
12800.000000	65.404602	0
13200.000000	64.222015	0
13600.000000	64.684692	0
14000.000000	65.776489	0
14500.000000	67.570625	0
15000.000000	67.350739	0
15500.000000	66.495483	0
16000.000000	67.842300	0
16500.000000	67.958603	0
17000.000000	64.806511	0
17500.000000	60.548870	0
18000.000000	59.723816	0
18500.000000	60.561844	0
19000.000000	60.067619	0
19500.000000	57.677811	0
